Folder: VSIOpenGLDemos/Hrishikesh Dombe/Samples/Terrain/texture/texture

Note: Hrishikesh Dombe/Samples/Terrain/texture/texture/Log.txt
Log File Created SuccessfullyNumDriverTypes = 3.
D3D11CreateDeviceAndSwapChain() Succeeded.
The Chosen Driver Is OfHardware Type.
The Supported Highest Feature Level Is11.0
D3DCompile() Succeeded For Vertex Shader.
CreateVertexShader() Succeeded.
D3DCompile() Succeeded For Pixel Shader.
CreatePixelShader() Succeeded.
ID3D11Device::CreateBuffer() Succeeded.
ID3D11Device::CreateBuffer() Succeeded.
ID3D11Device::CreateBuffer() Succeeded For Constant Buffer.
ID3D11Device::CreateBuffer() Succeeded For CreateRasterizerState.
ID3D11Device::CreateTexture2D() Succeeded.
0.
2.
ID3D11Device::CreateShaderResourceView() Succeeded.
ID3D11Device::CreateSamplerState() Succeeded For Pyramid Texture.
ID3D11Device::CreateTexture2D() Succeeded.
ID3D11Device::CreateDepthStencilView() Succeeded.
gpID3D11Device::CreateRenderTargetView() Succeeded.
resize() Succeeded.
Initialize()Succeeded.
ID3D11Device::CreateTexture2D() Succeeded.
ID3D11Device::CreateDepthStencilView() Succeeded.
gpID3D11Device::CreateRenderTargetView() Succeeded.
Resize() Succeeded.
uninitialize() Succeeded.
Log File Is Successfully Closed.

File: tga_data.txt
112,104,87,255,
156,142,132,255,
98,87,71,255,
92,84,67,255,
95,83,71,255,
119,110,96,255,
113,105,89,255,
166,151,133,255,
117,110,99,255,
138,128,116,255,
77,68,52,255,
75,62,52,255,
99,88,74,255,
97,89,72,255,
101,92,74,255,
108,99,76,255,
112,100,83,255,
135,132,113,255,
144,128,114,255,
108,95,79,255,
107,94,75,255,
156,144,125,255,
99,90,72,255,
99,86,69,255,
128,121,104,255,
120,110,97,255,
89,83,73,255,
96,88,70,255,
133,117,103,255,
136,125,113,255,
106,95,76,255,
139,133,122,255,
119,107,92,255,
94,88,68,255,
99,87,78,255,
87,77,60,255,
114,107,90,255,
112,99,81,255,
90,81,68,255,
97,85,73,255,
138,133,114,255,
165,147,125,255,
123,108,94,255,
117,106,98,255,
82,72,62,255,
121,110,91,255,
93,76,67,255,
111,101,85,255,
81,73,59,255,
134,118,103,255,
117,104,87,255,
96,84,66,255,
104,93,77,255,
103,88,74,255,
115,103,88,255,
122,108,94,255,
93,82,68,255,
64,49,30,255,
96,84,71,255,
118,104,87,255,
105,86,72,255,
112,105,94,255,
100,87,72,255,
136,126,112,255,
105,91,78,255,
134,123,108,255,
132,123,99,255,
91,75,59,255,
96,85,67,255,
174,156,149,255,
119,106,88,255,
121,106,96,255,
112,99,88,255,
151,133,126,255,
81,71,56,255,
94,80,70,255,
117,103,84,255,
99,94,72,255,
119,104,89,255,
91,80,60,255,
123,113,89,255,
112,97,87,255,
94,85,71,255,
96,90,73,255,
118,111,95,255,
143,130,112,255,
120,110,96,255,
141,126,115,255,
114,100,97,255,
97,84,67,255,
82,73,57,255,
107,93,81,255,
65,59,46,255,
96,89,66,255,
28,15,6,255,
84,73,53,255,
127,115,98,255,
100,92,75,255,
87,74,62,255,
116,102,91,255,
94,83,70,255,
129,118,104,255,
78,69,60,255,
120,108,86,255,
118,110,91,255,
90,77,65,255,
103,94,82,255,
107,94,77,255,
127,114,93,255,
193,191,179,255,
81,71,55,255,
114,104,90,255,
101,87,65,255,
132,121,107,255,
82,73,57,255,
88,76,57,255,
85,83,60,255,
101,88,77,255,
105,91,81,255,
87,75,62,255,
128,120,103,255,
80,69,58,255,
104,95,89,255,
90,81,65,255,
145,131,116,255,
155,138,121,255,
157,138,131,255,
110,99,87,255,
78,71,53,255,
24,24,20,255,
105,95,79,255,
103,94,85,255,
107,100,84,255,
108,99,84,255,
109,102,85,255,
97,88,75,255,
148,141,125,255,
90,80,59,255,
127,108,94,255,
116,102,86,255,
93,88,76,255,
94,89,70,255,
83,69,57,255,
122,114,95,255,
111,99,89,255,
178,172,144,255,
98,85,72,255,
121,114,104,255,
146,132,113,255,
118,108,94,255,
86,79,70,255,
87,79,63,255,
92,78,67,255,
114,104,89,255,
69,61,45,255,
113,103,88,255,
110,98,87,255,
104,92,78,255,
91,77,60,255,
104,89,73,255,
108,98,74,255,
105,94,79,255,
118,105,86,255,
101,87,71,255,
113,104,94,255,
105,97,79,255,
117,102,87,255,
114,108,89,255,
117,103,84,255,
165,151,133,255,
116,108,95,255,
156,150,140,255,
80,74,55,255,
129,116,106,255,
95,80,66,255,
93,83,67,255,
96,94,79,255,
85,78,61,255,
112,90,79,255,
92,75,61,255,
109,91,76,255,
80,69,58,255,
111,99,79,255,
44,40,30,255,
99,86,73,255,
139,129,116,255,
118,102,79,255,
134,117,101,255,
124,116,100,255,
129,122,108,255,
110,99,85,255,
103,89,72,255,
115,104,85,255,
134,122,108,255,
102,87,70,255,
80,68,48,255,
110,102,83,255,
140,124,113,255,
120,106,92,255,
108,102,90,255,
106,100,80,255,
100,90,72,255,
88,80,65,255,
123,119,96,255,
92,84,65,255,
121,119,95,255,
97,84,70,255,
98,91,75,255,
98,85,62,255,
157,146,130,255,
93,82,73,255,
109,95,80,255,
112,108,85,255,
92,82,65,255,
90,78,58,255,
161,146,127,255,
81,71,48,255,
133,122,102,255,
148,142,128,255,
108,95,84,255,
96,86,72,255,
71,62,46,255,
103,95,75,255,
126,111,91,255,
144,132,109,255,
110,96,71,255,
90,76,56,255,
106,99,81,255,
116,103,79,255,
104,90,74,255,
95,86,58,255,
103,90,71,255,
94,79,61,255,
120,110,96,255,
132,122,114,255,
62,53,40,255,
89,79,59,255,
115,103,83,255,
104,95,80,255,
200,179,170,255,
94,85,75,255,
155,147,138,255,
92,79,71,255,
144,136,132,255,
135,117,100,255,
91,78,64,255,
93,84,69,255,
135,123,109,255,
109,107,93,255,
100,89,78,255,
92,79,68,255,
83,75,59,255,
82,74,57,255,
141,131,105,255,
134,117,95,255,
107,103,84,255,
87,72,55,255,
126,116,103,255,
130,120,106,255,
99,89,81,255,
77,75,51,255,
124,115,99,255,
111,105,97,255,
103,93,85,255,
130,115,97,255,
132,124,107,255,
111,97,77,255,
121,106,89,255,
102,91,78,255,
132,119,100,255,
113,97,79,255,
147,133,123,255,
128,119,102,255,
124,114,99,255,
123,115,99,255,
85,72,63,255,
113,101,85,255,
78,63,53,255,
98,87,68,255,
118,110,93,255,
96,86,70,255,
123,108,93,255,
119,110,88,255,
121,110,93,255,
97,84,73,255,
95,87,68,255,
70,57,46,255,
113,100,82,255,
113,102,98,255,
116,102,88,255,
101,93,83,255,
107,97,84,255,
110,96,83,255,
143,128,111,255,
84,75,59,255,
125,110,102,255,
107,97,83,255,
122,114,96,255,
90,81,65,255,
83,72,55,255,
138,125,99,255,