Folder: VSIOpenGLDemos/Hrishikesh Dombe/Samples/Terrain/03-Terrain_Texturing

Note: Hrishikesh Dombe/Samples/Terrain/03-Terrain_Texturing/Log.txt
Log File Created SuccessfullyNumDriverTypes = 3.
D3D11CreateDeviceAndSwapChain() Succeeded.
The Chosen Driver Is OfHardware Type.
The Supported Highest Feature Level Is11.0
D3DCompile() Succeeded For Vertex Shader.
CreateVertexShader() Succeeded.
D3DCompile() Succeeded For Pixel Shader.
CreatePixelShader() Succeeded.
ID3D11Device::CreateBuffer() Succeeded.
ID3D11Device::CreateBuffer() Succeeded.
ID3D11Device::CreateBuffer() Succeeded For Constant Buffer.
ID3D11Device::CreateBuffer() Succeeded For CreateRasterizerState.
ID3D11Device::CreateTexture2D() Succeeded.
0.

File: tga_data.txt
112,104,87,255,
93,88,70,255,
77,67,60,255,
149,141,128,255,
108,98,80,255,
70,55,44,255,
104,93,74,255,
138,122,108,255,
96,86,72,255,
138,128,111,255,
103,94,78,255,
94,85,66,255,
177,159,142,255,
121,107,96,255,
77,73,53,255,
104,88,72,255,
113,94,80,255,
95,87,70,255,
121,104,89,255,
96,84,64,255,
75,70,52,255,
125,117,102,255,
95,86,71,255,
91,79,66,255,
128,117,102,255,
64,53,40,255,
107,98,81,255,
101,84,71,255,
91,81,66,255,
66,62,52,255,
113,105,87,255,
95,82,68,255,
114,104,90,255,
124,109,90,255,
125,107,91,255,
105,99,78,255,
109,99,85,255,
110,103,91,255,
86,75,59,255,
125,114,98,255,
143,127,110,255,
103,92,75,255,
100,91,74,255,
98,84,68,255,
125,112,101,255,
95,89,69,255,
102,88,69,255,
110,103,85,255,
117,101,86,255,
128,118,95,255,
131,129,121,255,
64,56,40,255,
100,88,66,255,
123,113,97,255,
119,105,86,255,
78,69,52,255,
102,91,70,255,
148,139,121,255,
72,59,47,255,
104,94,78,255,
143,129,113,255,
110,100,83,255,
109,99,83,255,
78,69,53,255,
92,78,59,255,
103,87,74,255,
202,185,169,255,
114,106,88,255,
129,117,107,255,
96,91,72,255,
117,104,87,255,
114,107,95,255,
109,103,94,255,
109,97,77,255,
104,94,76,255,
109,101,82,255,
99,88,73,255,
131,121,98,255,
101,91,83,255,
171,162,145,255,
126,114,102,255,
78,66,45,255,
111,101,78,255,
111,98,89,255,
119,102,83,255,
112,100,83,255,
105,95,88,255,
114,104,90,255,
83,75,50,255,
131,117,99,255,
109,105,85,255,
93,87,70,255,
122,111,91,255,
128,118,95,255,
92,78,60,255,
133,123,107,255,
102,91,74,255,
97,89,74,255,
129,118,104,255,
89,75,63,255,
123,119,89,255,
119,112,95,255,
168,157,145,255,
110,98,82,255,
150,140,123,255,
84,68,56,255,
149,137,130,255,
83,78,66,255,
81,68,46,255,
121,108,81,255,
122,107,93,255,
118,108,93,255,
102,91,74,255,
121,110,95,255,
123,112,89,255,
151,135,116,255,
104,93,78,255,
124,117,101,255,
145,130,120,255,
95,85,73,255,
180,167,147,255,
173,156,150,255,
98,87,71,255,
103,93,74,255,
123,107,94,255,
149,134,113,255,
99,90,74,255,
131,117,105,255,
119,110,94,255,
54,42,30,255,
65,59,39,255,
88,72,62,255,
97,87,71,255,
127,118,104,255,
97,76,62,255,
100,92,73,255,
93,81,61,255,
97,89,71,255,
119,103,91,255,
120,109,94,255,
74,61,49,255,
160,144,123,255,
135,120,101,255,
120,113,96,255,
88,78,71,255,
120,110,95,255,
110,101,87,255,
98,85,70,255,
81,72,56,255,
99,80,64,255,
98,91,81,255,
140,132,122,255,
88,78,61,255,
120,114,97,255,
122,115,99,255,
183,164,159,255,
105,98,86,255,
105,98,85,255,
103,93,77,255,
122,113,98,255,
131,123,106,255,
139,123,114,255,
110,99,83,255,
106,96,79,255,
122,108,92,255,
119,109,94,255,
92,82,68,255,
78,64,40,255,
74,66,56,255,
92,83,67,255,
82,70,57,255,
135,117,104,255,
102,95,75,255,
104,99,79,255,
115,101,88,255,
109,93,76,255,
116,104,83,255,
111,102,80,255,
120,102,85,255,
100,87,71,255,
120,111,96,255,
127,118,104,255,
112,100,84,255,
101,94,80,255,
136,125,111,255,
113,100,79,255,
117,105,86,255,
92,79,68,255,
126,115,99,255,
126,118,105,255,
92,78,66,255,
161,149,135,255,
137,120,103,255,
102,87,82,255,
89,77,61,255,
120,110,103,255,
108,96,83,255,
146,131,118,255,
127,117,102,255,
114,107,88,255,
115,101,81,255,
106,94,80,255,
124,122,106,255,
94,84,70,255,
131,115,99,255,
66,60,48,255,
122,111,94,255,
132,120,100,255,
136,125,106,255,
131,120,100,255,
122,110,94,255,
66,49,42,255,
126,123,118,255,
109,101,75,255,
91,78,59,255,
106,90,72,255,
106,101,82,255,
150,136,127,255,
87,72,56,255,
106,96,78,255,
123,109,91,255,
115,106,92,255,
93,81,68,255,
103,88,67,255,
106,95,79,255,
119,110,93,255,
91,72,56,255,
110,96,87,255,
91,82,70,255,
129,113,94,255,
59,53,42,255,
88,79,64,255,
121,112,95,255,
100,94,74,255,
77,77,62,255,
107,94,84,255,
108,92,80,255,
135,122,112,255,
138,130,116,255,
133,123,107,255,
105,94,73,255,
97,84,71,255,
108,90,73,255,
163,141,123,255,
129,120,107,255,
118,109,90,255,
120,108,92,255,
112,98,85,255,
85,79,68,255,
99,90,75,255,
138,127,114,255,
69,54,43,255,
130,121,112,255,
114,107,91,255,
188,168,154,255,
122,99,89,255,
101,93,67,255,
101,87,71,255,
110,96,81,255,
116,110,86,255,
119,109,92,255,
100,91,78,255,
159,151,134,255,
66,57,41,255,
118,104,84,255,
176,162,145,255,
150,140,130,255,
134,123,109,255,
97,82,66,255,
140,131,115,255,
125,114,102,255,
119,106,88,255,
137,122,103,255,
99,89,76,255,
96,82,72,255,
111,99,83,255,
120,116,111,255,
121,112,92,255,
92,83,62,255,
125,113,99,255,
116,106,94,255,
82,70,51,255,
117,106,92,255,
107,97,83,255,
130,118,96,255,
127,117,101,255,
119,109,96,255,
108,100,82,255,
106,95,79,255,
139,131,108,255,
95,79,61,255,
107,95,78,255,
105,95,80,255,
107,97,81,255,
113,104,90,255,
138,128,114,255,
104,91,75,255,
105,92,70,255,
106,94,81,255,
87,79,64,255,
207,195,183,255,

File: tga_data_test.txt
0,255,0,255,
0,255,0,255,
0,255,0,255,
0,255,0,255,
65,65,65,255,
65,65,65,255,
65,65,65,255,
65,65,65,255,
65,65,65,255,
65,65,65,255,
65,65,65,255,
65,65,65,255,
65,65,65,255,
65,65,65,255,
65,65,65,255,
65,65,65,255,
65,65,65,255,
65,65,65,255,
65,65,65,255,
65,65,65,255,
65,65,65,255,
0,255,0,255,
65,65,65,255,
65,65,65,255,
65,65,65,255,
65,65,65,255,
65,65,65,255,
65,65,65,255,
65,65,65,255,
65,65,65,255,
65,65,65,255,
0,255,0,255,
65,65,65,255,
65,65,65,255,
65,65,65,255,
65,65,65,255,
65,65,65,255,
65,65,65,255,
0,255,0,255,
65,65,65,255,
65,65,65,255,
0,255,0,255,
65,65,65,255,
65,65,65,255,
65,65,65,255,
65,65,65,255,
65,65,65,255,
65,65,65,255,
65,65,65,255,
65,65,65,255,
65,65,65,255,
65,65,65,255,
65,65,65,255,
65,65,65,255,
65,65,65,255,
65,65,65,255,
65,65,65,255,
65,65,65,255,
0,255,0,255,
65,65,65,255,
65,65,65,255,
65,65,65,255,
65,65,65,255,
65,65,65,255,
65,65,65,255,
65,65,65,255,
65,65,65,255,
65,65,65,255,
65,65,65,255,
65,65,65,255,
65,65,65,255,
65,65,65,255,
65,65,65,255,
65,65,65,255,
65,65,65,255,
65,65,65,255,
65,65,65,255,
65,65,65,255,
65,65,65,255,
65,65,65,255,
65,65,65,255,
65,65,65,255,
65,65,65,255,
65,65,65,255,
65,65,65,255,
65,65,65,255,
65,65,65,255,
65,65,65,255,
65,65,65,255,
65,65,65,255,
65,65,65,255,
65,65,65,255,
65,65,65,255,
65,65,65,255,
65,65,65,255,
65,65,65,255,
65,65,65,255,
65,65,65,255,
65,65,65,255,
0,255,0,255,
65,65,65,255,
65,65,65,255,
65,65,65,255,
65,65,65,255,
65,65,65,255,
65,65,65,255,
65,65,65,255,
65,65,65,255,
65,65,65,255,
65,65,65,255,
65,65,65,255,
65,65,65,255,
65,65,65,255,
65,65,65,255,
65,65,65,255,
65,65,65,255,
65,65,65,255,
65,65,65,255,
65,65,65,255,
65,65,65,255,
65,65,65,255,
65,65,65,255,
65,65,65,255,
65,65,65,255,
65,65,65,255,
65,65,65,255,
65,65,65,255,
65,65,65,255,
65,65,65,255,
65,65,65,255,
65,65,65,255,
65,65,65,255,
65,65,65,255,
65,65,65,255,
65,65,65,255,
65,65,65,255,
65,65,65,255,
65,65,65,255,
65,65,65,255,
65,65,65,255,
65,65,65,255,
65,65,65,255,
65,65,65,255,
65,65,65,255,
65,65,65,255,
65,65,65,255,
65,65,65,255,
65,65,65,255,
65,65,65,255,
65,65,65,255,
65,65,65,255,
65,65,65,255,
65,65,65,255,
65,65,65,255,
65,65,65,255,
65,65,65,255,
65,65,65,255,
0,255,0,255,
65,65,65,255,
65,65,65,255,
65,65,65,255,
65,65,65,255,
65,65,65,255,
65,65,65,255,
65,65,65,255,
65,65,65,255,
65,65,65,255,
65,65,65,255,
65,65,65,255,
65,65,65,255,
65,65,65,255,
65,65,65,255,
65,65,65,255,
65,65,65,255,
65,65,65,255,
65,65,65,255,
65,65,65,255,
65,65,65,255,
65,65,65,255,
65,65,65,255,
65,65,65,255,
65,65,65,255,
65,65,65,255,
65,65,65,255,
65,65,65,255,
65,65,65,255,
65,65,65,255,
65,65,65,255,
65,65,65,255,
65,65,65,255,
65,65,65,255,
65,65,65,255,
65,65,65,255,
65,65,65,255,
65,65,65,255,
65,65,65,255,
65,65,65,255,
65,65,65,255,
0,255,0,255,
65,65,65,255,
65,65,65,255,
65,65,65,255,
65,65,65,255,
65,65,65,255,
65,65,65,255,
65,65,65,255,
65,65,65,255,
65,65,65,255,
65,65,65,255,
65,65,65,255,
65,65,65,255,
65,65,65,255,
65,65,65,255,
65,65,65,255,
65,65,65,255,
65,65,65,255,
65,65,65,255,
65,65,65,255,
65,65,65,255,
65,65,65,255,
65,65,65,255,
65,65,65,255,
65,65,65,255,
65,65,65,255,
65,65,65,255,
65,65,65,255,
65,65,65,255,
65,65,65,255,
65,65,65,255,
65,65,65,255,
65,65,65,255,
65,65,65,255,
65,65,65,255,
65,65,65,255,
65,65,65,255,
65,65,65,255,
65,65,65,255,
65,65,65,255,
65,65,65,255,
65,65,65,255,
65,65,65,255,
65,65,65,255,
65,65,65,255,
65,65,65,255,
65,65,65,255,
65,65,65,255,
65,65,65,255,
65,65,65,255,
65,65,65,255,
65,65,65,255,
65,65,65,255,
65,65,65,255,
65,65,65,255,
65,65,65,255,
65,65,65,255,
65,65,65,255,
0,255,0,255,
65,65,65,255,
65,65,65,255,
65,65,65,255,
65,65,65,255,
65,65,65,255,
65,65,65,255,
65,65,65,255,
65,65,65,255,
65,65,65,255,
65,65,65,255,
65,65,65,255,
65,65,65,255,
65,65,65,255,
65,65,65,255,
65,65,65,255,
65,65,65,255,
65,65,65,255,
65,65,65,255,
65,65,65,255,
65,65,65,255,
65,65,65,255,
65,65,65,255,
65,65,65,255,
65,65,65,255,
65,65,65,255,
65,65,65,255,
65,65,65,255,
65,65,65,255,
65,65,65,255,
65,65,65,255,
65,65,65,255,
65,65,65,255,
65,65,65,255,
65,65,65,255,
65,65,65,255,
65,65,65,255,
65,65,65,255,
65,65,65,255,
65,65,65,255,
65,65,65,255,
0,255,0,255,
0,255,0,255,
0,255,0,255,
0,255,0,255,